File: blazor-google-chartsV2/Base(13).emsa
#FORMAT      : EMSA/MAS Spectral Data File
#VERSION     : 1.0
#TITLE       : Base(13)
#DATE        : 09-AUG-2011
#TIME        : 10:12: 8
#OWNER       :
#NPOINTS     : 2560.0
#NCOLUMNS    : 1.0
#XUNITS      : keV
#YUNITS      : Intensity
#DATATYPE    : XY
#XPERCHAN    : 0.01
#OFFSET      : 0.000000000
#CHOFFSET    : 0.000000
#SIGNALTYPE  : EDS
#XLABEL      : X-Ray Energy
#YLABEL      : X-Ray Intensity
#BEAMKV   -kV:  25.0
#EMISSION -uA: 0.0000
#PROBECUR -nA: 1.1520
#BEAMDIAM -nm:   0.0
#MAGCAM      : 130.0
#OPERMODE    : IMAG
#XTILTSTGE-dg: 0.000
#YTILTSTGE-dg: 0.000
#XPOSITION   : 23.480
#YPOSITION   : 23.661
#ZPOSITION   : 42.499
#ELEVANGLE-dg: 38.95
#AZIMANGLE-dg:  0.00
#SOLIDANGL-sR: 0.0050
#LIVETIME  -s:  30.0
#REALTIME  -s:  31.9
#THCWIND     : 3.00E-09
#TAUWIND  -cm: 2.00E-06
#TDEADLYR -cm: 1.00E-06
#EDSDET      : SI-DRIFT
#COMMENT     : The following parameters are defined by Thermo Fisher Scientific
##INSTRUMENT : NSS Microanalysis System
##DETNAME    : UltraDry 1
##CONTAM     : 0.00E+00
##CONTAMTYPE : NONE
##WORKDIST   : 23.00
##STAGEROT   : 0.000
##SLIDEPOS   : 40.000
##CRYSTMATL  : Si-Drift
##CRYSTAREA  : 10.000
##CRYSTTHICK : 0.450
##CONTMATL   : SDD_LELMT
##WINDCOAT   : ALUM
##WINDTHICK  : 0.030
##DEADTIME   : 1.937
##TIMECNSTNT : 6400
##EDSBOARDREV: 2
##ZEROWIDTH  : 34.000
##DETECTS    : 146855
##CONVERTS   : 134409
##STORES     : 125990
##ESCPKSREM  : 0
##ZEROPKSREM : 0
##SUMPKSREM  : 0
##ZEROCUTOFF : 0.000
##DETSUBTYPE : 3
##EXPONENT   : 0.000
##LOWEVADJ   : 0.000
##BEAMX      : -1.000
##BEAMY      : -1.000
##CHARGE     : 0.00E+00
##QUANT_DATE : Tue Aug 09 10:12:40 2011
##QUANT_CHI  : 614.698
##WDS_ANGLE  : 0.000
##FITTYPE    : 3
##MATRIXCORR : 1
##PEAKLAB    : 8.631000  Zn Ka  2
##PEAKLAB    : 1.009000  Zn La  2
##PEAKLAB    : 8.041000  Cu Ka  2
##PEAKLAB    : 0.928000  Cu La  2
##QUANT_ATNUM: ZnK, 30
##QUANT_LNTP : ZnK, 1
##QUANT_SRC  : ZnK, 2
##QUANT_NTCNT: ZnK, 7
##QUANT_CTERR: ZnK, 47
##QUANT_STD  : ZnK,
##QUANT_CMPD : ZnK,  Zn
##QUANT_KRT  : ZnK, 1.00000
##QUANT_KERR : ZnK, 1.00000
##QUANT_FITC : ZnK, 1.89506e-005
##QUANT_WTCON: ZnK, 1.00000
##QUANT_ATCON: ZnK, 1.00000
##QUANT_COCON: ZnK, 1.00000
##QUANT_Z    : ZnK, 1.00000
##QUANT_A    : ZnK, 1.00065
##QUANT_F    : ZnK, 1.00000
##QUANT_KFACT: ZnK, 0.00000
##QUANT_CATS : ZnK, 0.00000
##QUANT_FITC1: ZnK, 0.00000e+000
##QUANT_FITC2: ZnK, 0.00000e+000
##QUANT_FIT_G: ZnK, 8.55164e-006
##QUANT_PMTR0: ZnK, 1.06534e+000
##QUANT_PMTR1: ZnK, -1.00000e+001
##QUANT_PMTR2: ZnK, 4.16900e-002
##QUANT_PMTR3: ZnK, 1.29947e+000
##QUANT_ATNUM: ZnL, 30
##QUANT_LNTP : ZnL, 2
##QUANT_SRC  : ZnL, 1
##QUANT_NTCNT: ZnL, 0
##QUANT_CTERR: ZnL, 0
##QUANT_STD  : ZnL,
##QUANT_CMPD : ZnL,  (null)
##QUANT_KRT  : ZnL, 0.00000
##QUANT_KERR : ZnL, 0.00000
##QUANT_FITC : ZnL, 0.00000e+000
##QUANT_WTCON: ZnL, -1.00000
##QUANT_ATCON: ZnL, 0.00000
##QUANT_COCON: ZnL, 0.00000
##QUANT_Z    : ZnL, 0.00000
##QUANT_A    : ZnL, 0.00000
##QUANT_F    : ZnL, 0.00000
##QUANT_KFACT: ZnL, 0.00000
##QUANT_CATS : ZnL, 0.00000
##QUANT_FITC1: ZnL, 0.00000e+000
##QUANT_FITC2: ZnL, 0.00000e+000
##QUANT_FIT_G: ZnL, 0.00000e+000
##QUANT_PMTR0: ZnL, 9.13126e-001
##QUANT_PMTR1: ZnL, 0.00000e+000
##QUANT_PMTR2: ZnL, 0.00000e+000
##QUANT_PMTR3: ZnL, 2.78772e+000
##QUANT_ATNUM: CuK, 29
##QUANT_LNTP : CuK, 1
##QUANT_SRC  : CuK, 2
##QUANT_NTCNT: CuK, 0
##QUANT_CTERR: CuK, 23
##QUANT_STD  : CuK,
##QUANT_CMPD : CuK,  Cu
##QUANT_KRT  : CuK, 0.00000
##QUANT_KERR : CuK, 0.00000
##QUANT_FITC : CuK, 0.00000e+000
##QUANT_WTCON: CuK, 0.00000
##QUANT_ATCON: CuK, 0.00000
##QUANT_COCON: CuK, 0.00000
##QUANT_Z    : CuK, 1.00150
##QUANT_A    : CuK, 1.00412
##QUANT_F    : CuK, 1.00000
##QUANT_KFACT: CuK, 0.00000
##QUANT_CATS : CuK, 0.00000
##QUANT_FITC1: CuK, 0.00000e+000
##QUANT_FITC2: CuK, 0.00000e+000
##QUANT_FIT_G: CuK, 1.79789e-004
##QUANT_PMTR0: CuK, 1.06534e+000
##QUANT_PMTR1: CuK, -1.00000e+001
##QUANT_PMTR2: CuK, 4.16900e-002
##QUANT_PMTR3: CuK, 1.29947e+000
##QUANT_ATNUM: CuL, 29
##QUANT_LNTP : CuL, 2
##QUANT_SRC  : CuL, 1
##QUANT_NTCNT: CuL, 8020
##QUANT_CTERR: CuL, 134
##QUANT_STD  : CuL,
##QUANT_CMPD : CuL,  (null)
##QUANT_KRT  : CuL, 0.00000
##QUANT_KERR : CuL, 0.00000
##QUANT_FITC : CuL, 1.12763e-001
##QUANT_WTCON: CuL, -1.00000
##QUANT_ATCON: CuL, 0.00000
##QUANT_COCON: CuL, 0.00000
##QUANT_Z    : CuL, 0.00000
##QUANT_A    : CuL, 0.00000
##QUANT_F    : CuL, 0.00000
##QUANT_KFACT: CuL, 0.00000
##QUANT_CATS : CuL, 0.00000
##QUANT_FITC1: CuL, 2.65307e-002
##QUANT_FITC2: CuL, 3.42551e-002
##QUANT_FIT_G: CuL, 2.78541e-001
##QUANT_PMTR0: CuL, 9.13126e-001
##QUANT_PMTR1: CuL, 0.00000e+000
##QUANT_PMTR2: CuL, 0.00000e+000
##QUANT_PMTR3: CuL, 2.78772e+000
#SPECTRUM    :
0.0000,  4603.0,
0.0200,  5605.0,
0.0400,  1475.0,
0.0600,   216.0,
0.0800,    59.0,
0.1000,    26.0,
0.1200,    14.0,
0.1400,    40.0,
0.1600,    71.0,
0.1800,   103.0,
0.2000,    95.0,
0.2200,   128.0,
0.2400,   155.0,
0.2600,   144.0,
0.2800,   102.0,
0.3000,    57.0,
0.3200,    27.0,
0.3400,    27.0,
0.3600,    34.0,
0.3800,    43.0,
0.4000,    48.0,
0.4200,    51.0,
0.4400,    59.0,
0.4600,    58.0,
0.4800,    57.0,
0.5000,    90.0,
0.5200,   107.0,
0.5400,   105.0,
0.5600,   122.0,
0.5800,   118.0,
0.6000,   129.0,
0.6200,   124.0,
0.6400,   151.0,
0.6600,   158.0,
0.6800,   229.0,
0.7000,   324.0,
0.7200,   539.0,
0.7400,   717.0,
0.7600,   554.0,
0.7800,   541.0,
0.8000,   897.0,
0.8200,  1982.0,
0.8400,  2876.0,
0.8600,  2860.0,
0.8800,  1664.0,
0.9000,   639.0,
0.9200,   205.0,
0.9400,   115.0,
0.9600,    50.0,
0.9800,    47.0,
1.0000,    32.0,
1.0200,    34.0,
1.0400,    41.0,
1.0600,    40.0,
1.0800,    38.0,
1.1000,    41.0,
1.1200,    45.0,
1.1400,    35.0,
1.1600,    51.0,
1.1800,    31.0,
1.2000,    36.0,
1.2200,    41.0,
1.2400,    43.0,
1.2600,    33.0,
1.2800,    34.0,
1.3000,    41.0,
1.3200,    43.0,
1.3400,    41.0,
1.3600,    48.0,
1.3800,    52.0,
1.4000,    51.0,
1.4200,    67.0,
1.4400,    49.0,
1.4600,    59.0,
1.4800,    73.0,
1.5000,    66.0,
1.5200,    48.0,
1.5400,    51.0,
1.5600,    50.0,
1.5800,    48.0,
1.6000,    48.0,
1.6200,    51.0,
1.6400,    54.0,
1.6600,    45.0,
1.6800,    65.0,
1.7000,    58.0,
1.7200,    60.0,
1.7400,    65.0,
1.7600,    68.0,
1.7800,    73.0,
1.8000,    70.0,
1.8200,    61.0,
1.8400,    55.0,
1.8600,    56.0,
1.8800,    55.0,
1.9000,    55.0,
1.9200,    43.0,
1.9400,    42.0,
1.9600,    61.0,
1.9800,    56.0,
2.0000,    59.0,
2.0200,    44.0,
2.0400,    52.0,
2.0600,    51.0,
2.0800,    34.0,
2.1000,    54.0,
2.1200,    36.0,
2.1400,    48.0,
2.1600,    42.0,
2.1800,    51.0,
2.2000,    62.0,
2.2200,    53.0,
2.2400,    66.0,
2.2600,    56.0,
2.2800,    62.0,
2.3000,    58.0,
2.3200,    47.0,
2.3400,    47.0,
2.3600,    62.0,
2.3800,    69.0,
2.4000,    49.0,
2.4200,    53.0,
2.4400,    61.0,
2.4600,    49.0,
2.4800,    49.0,
2.5000,    53.0,
2.5200,    64.0,
2.5400,    51.0,
2.5600,    56.0,
2.5800,    51.0,
2.6000,    53.0,
2.6200,    54.0,
2.6400,    59.0,
2.6600,    44.0,
2.6800,    52.0,
2.7000,    58.0,
2.7200,    45.0,
2.7400,    44.0,
2.7600,    57.0,
2.7800,    51.0,
2.8000,    50.0,
2.8200,    72.0,
2.8400,    42.0,
2.8600,    44.0,
2.8800,    39.0,
2.9000,    61.0,
2.9200,    41.0,
2.9400,    57.0,
2.9600,    65.0,
2.9800,    53.0,
3.0000,    48.0,
3.0200,    46.0,
3.0400,    57.0,
3.0600,    50.0,
3.0800,    40.0,
3.1000,    48.0,
3.1200,    54.0,
3.1400,    39.0,
3.1600,    49.0,
3.1800,    49.0,
3.2000,    51.0,
3.2200,    56.0,
3.2400,    41.0,
3.2600,    49.0,
3.2800,    64.0,
3.3000,    45.0,
3.3200,    48.0,
3.3400,    52.0,
3.3600,    50.0,
3.3800,    46.0,
3.4000,    47.0,
3.4200,    28.0,
3.4400,    26.0,
3.4600,    51.0,
3.4800,    46.0,
3.5000,    53.0,
3.5200,    46.0,
3.5400,    49.0,
3.5600,    31.0,
3.5800,    33.0,
3.6000,    52.0,
3.6200,    58.0,
3.6400,    49.0,
3.6600,    40.0,
3.6800,    42.0,
3.7000,    49.0,
3.7200,    38.0,
3.7400,    48.0,
3.7600,    54.0,
3.7800,    45.0,
3.8000,    55.0,
3.8200,    41.0,
3.8400,    41.0,
3.8600,    48.0,
3.8800,    37.0,
3.9000,    48.0,
3.9200,    42.0,
3.9400,    35.0,
3.9600,    47.0,
3.9800,    36.0,
4.0000,    34.0,
4.0200,    42.0,
4.0400,    39.0,
4.0600,    28.0,
4.0800,    41.0,
4.1000,    49.0,
4.1200,    47.0,
4.1400,    36.0,
4.1600,    32.0,
4.1800,    31.0,
4.2000,    29.0,
4.2200,    37.0,
4.2400,    33.0,
4.2600,    47.0,
4.2800,    41.0,
4.3000,    38.0,
4.3200,    40.0,
4.3400,    32.0,
4.3600,    23.0,
4.3800,    38.0,
4.4000,    40.0,
4.4200,    44.0,
4.4400,    38.0,
4.4600,    37.0,
4.4800,    42.0,
4.5000,    43.0,
4.5200,    35.0,
4.5400,    45.0,
4.5600,    32.0,
4.5800,    39.0,
4.6000,    35.0,
4.6200,    43.0,
4.6400,    37.0,
4.6600,    40.0,
4.6800,    38.0,
4.7000,    42.0,
4.7200,    28.0,
4.7400,    35.0,
4.7600,    44.0,
4.7800,    33.0,
4.8000,    34.0,
4.8200,    34.0,
4.8400,    30.0,
4.8600,    34.0,
4.8800,    45.0,
4.9000,    27.0,
4.9200,    28.0,
4.9400,    37.0,
4.9600,    32.0,
4.9800,    38.0,
5.0000,    36.0,
5.0200,    37.0,
5.0400,    26.0,
5.0600,    47.0,
5.0800,    30.0,
5.1000,    36.0,
5.1200,    31.0,
5.1400,    44.0,
5.1600,    35.0,
5.1800,    38.0,
5.2000,    27.0,
5.2200,    36.0,
5.2400,    36.0,
5.2600,    39.0,
5.2800,    32.0,
5.3000,    41.0,
5.3200,    39.0,
5.3400,    22.0,
5.3600,    24.0,
5.3800,    29.0,
5.4000,    29.0,
5.4200,    22.0,
5.4400,    36.0,
5.4600,    26.0,
5.4800,    24.0,
5.5000,    26.0,
5.5200,    35.0,
5.5400,    26.0,
5.5600,    32.0,
5.5800,    24.0,
5.6000,    25.0,
5.6200,    22.0,
5.6400,    38.0,
5.6600,    32.0,
5.6800,    35.0,
5.7000,    27.0,
5.7200,    36.0,
5.7400,    39.0,
5.7600,    31.0,
5.7800,    37.0,
5.8000,    40.0,
5.8200,    27.0,
5.8400,    28.0,
5.8600,    38.0,
5.8800,    23.0,
5.9000,    36.0,
5.9200,    31.0,
5.9400,    38.0,
5.9600,    30.0,
5.9800,    26.0,
6.0000,    22.0,
6.0200,    29.0,
6.0400,    28.0,
6.0600,    32.0,
6.0800,    23.0,
6.1000,    25.0,
6.1200,    29.0,
6.1400,    28.0,
6.1600,    22.0,
6.1800,    30.0,
6.2000,    19.0,
6.2200,    33.0,
6.2400,    29.0,
6.2600,    18.0,
6.2800,    16.0,
6.3000,    29.0,
6.3200,    20.0,
6.3400,    30.0,
6.3600,    27.0,
6.3800,    21.0,
6.4000,    41.0,
6.4200,    27.0,
6.4400,    23.0,
6.4600,    26.0,
6.4800,    30.0,
6.5000,    22.0,
6.5200,    23.0,
6.5400,    17.0,
6.5600,    27.0,
6.5800,    28.0,
6.6000,    21.0,
6.6200,    24.0,
6.6400,    25.0,
6.6600,    21.0,
6.6800,    22.0,
6.7000,    20.0,
6.7200,    28.0,
6.7400,    23.0,
6.7600,    25.0,
6.7800,    15.0,
6.8000,    18.0,
6.8200,    20.0,
6.8400,    23.0,
6.8600,    18.0,
6.8800,    17.0,
6.9000,    22.0,
6.9200,    18.0,
6.9400,    20.0,
6.9600,    22.0,
6.9800,    24.0,
7.0000,    25.0,
7.0200,    21.0,
7.0400,    19.0,
7.0600,    27.0,
7.0800,    22.0,
7.1000,    22.0,
7.1200,    26.0,
7.1400,    28.0,
7.1600,    14.0,
7.1800,    24.0,
7.2000,    30.0,
7.2200,    18.0,
7.2400,    33.0,
7.2600,    32.0,
7.2800,    20.0,
7.3000,    38.0,
7.3200,    45.0,
7.3400,    71.0,
7.3600,   138.0,
7.3800,   221.0,
7.4000,   423.0,
7.4200,   677.0,
7.4400,  1039.0,
7.4600,  1406.0,
7.4800,  1713.0,
7.5000,  1959.0,
7.5200,  1975.0,
7.5400,  1679.0,
7.5600,  1396.0,
7.5800,  1049.0,
7.6000,   672.0,
7.6200,   411.0,
7.6400,   239.0,
7.6600,   141.0,
7.6800,    68.0,
7.7000,    32.0,
7.7200,    33.0,
7.7400,    22.0,
7.7600,    17.0,
7.7800,    13.0,
7.8000,    23.0,
7.8200,    22.0,
7.8400,    24.0,
7.8600,    15.0,
7.8800,    15.0,
7.9000,    20.0,
7.9200,    27.0,
7.9400,    23.0,
7.9600,    23.0,
7.9800,    30.0,
8.0000,    18.0,
8.0200,    11.0,
8.0400,    24.0,
8.0600,    21.0,
8.0800,    18.0,
8.1000,    20.0,
8.1200,    19.0,
8.1400,    31.0,
8.1600,    40.0,
8.1800,    69.0,
8.2000,    77.0,
8.2200,   121.0,
8.2400,   154.0,
8.2600,   208.0,
8.2800,   224.0,
8.3000,   260.0,
8.3200,   245.0,
8.3400,   230.0,
8.3600,   206.0,
8.3800,   146.0,
8.4000,   123.0,
8.4200,    75.0,
8.4400,    57.0,
8.4600,    21.0,
8.4800,    18.0,
8.5000,    18.0,
8.5200,    12.0,
8.5400,    21.0,
8.5600,     9.0,
8.5800,    11.0,
8.6000,    11.0,
8.6200,    15.0,
8.6400,    11.0,
8.6600,    11.0,
8.6800,     7.0,
8.7000,    18.0,
8.7200,    18.0,
8.7400,     8.0,
8.7600,    12.0,
8.7800,     9.0,
8.8000,    15.0,
8.8200,    16.0,
8.8400,    13.0,
8.8600,    16.0,
8.8800,    18.0,
8.9000,    12.0,
8.9200,    16.0,
8.9400,    14.0,
8.9600,    13.0,
8.9800,     7.0,
9.0000,    12.0,
9.0200,    15.0,
9.0400,    10.0,
9.0600,     9.0,
9.0800,     7.0,
9.1000,    14.0,
9.1200,    13.0,
9.1400,    12.0,
9.1600,    16.0,
9.1800,    13.0,
9.2000,     6.0,
9.2200,     9.0,
9.2400,    12.0,
9.2600,    13.0,
9.2800,    19.0,
9.3000,    10.0,
9.3200,     4.0,
9.3400,    14.0,
9.3600,    10.0,
9.3800,    13.0,
9.4000,    18.0,
9.4200,     7.0,
9.4400,    17.0,
9.4600,    10.0,
9.4800,    14.0,
9.5000,    10.0,
9.5200,    10.0,
9.5400,    20.0,
9.5600,    12.0,
9.5800,    13.0,
9.6000,    16.0,
9.6200,    16.0,
9.6400,    15.0,
9.6600,    11.0,
9.6800,     9.0,
9.7000,    17.0,
9.7200,    11.0,
9.7400,     8.0,
9.7600,     9.0,
9.7800,    15.0,
9.8000,    11.0,
9.8200,    12.0,
9.8400,     6.0,
9.8600,    13.0,
9.8800,    12.0,
9.9000,     5.0,
9.9200,    13.0,
9.9400,    12.0,
9.9600,     9.0,
9.9800,    13.0,
10.0000,    14.0,
10.0200,    10.0,
10.0400,    15.0,
10.0600,     9.0,
10.0800,    10.0,
10.1000,    11.0,
10.1200,    11.0,
10.1400,    11.0,
10.1600,     7.0,
10.1800,     8.0,
10.2000,    12.0,
10.2200,    14.0,
10.2400,    12.0,
10.2600,     9.0,
10.2800,    11.0,
10.3000,     4.0,
10.3200,    13.0,
10.3400,    10.0,
10.3600,    13.0,
10.3800,    12.0,
10.4000,    11.0,
10.4200,     9.0,
10.4400,    12.0,
10.4600,     8.0,
10.4800,    14.0,
10.5000,    15.0,
10.5200,    14.0,
10.5400,     8.0,
10.5600,    10.0,
10.5800,    11.0,
10.6000,    11.0,
10.6200,     7.0,
10.6400,    11.0,
10.6600,    13.0,
10.6800,    11.0,
10.7000,     7.0,
10.7200,     5.0,
10.7400,    11.0,
10.7600,     9.0,
10.7800,    12.0,
10.8000,    12.0,
10.8200,    13.0,
10.8400,    15.0,
10.8600,     9.0,
10.8800,    13.0,
10.9000,    12.0,
10.9200,    15.0,
10.9400,    10.0,
10.9600,     7.0,
10.9800,    13.0,
11.0000,     8.0,
11.0200,     7.0,
11.0400,    13.0,
11.0600,    16.0,
11.0800,    10.0,
11.1000,     7.0,
11.1200,     6.0,
11.1400,    17.0,
11.1600,     4.0,
11.1800,     6.0,
11.2000,    12.0,
11.2200,     5.0,
11.2400,    11.0,
11.2600,     8.0,
11.2800,     7.0,
11.3000,    13.0,
11.3200,    12.0,
11.3400,     6.0,
11.3600,    12.0,
11.3800,    10.0,
11.4000,     9.0,
11.4200,    13.0,
11.4400,    10.0,
11.4600,     5.0,
11.4800,     4.0,
11.5000,     9.0,
11.5200,    12.0,
11.5400,     6.0,
11.5600,    13.0,
11.5800,     3.0,
11.6000,     7.0,
11.6200,    11.0,
11.6400,    10.0,
11.6600,     5.0,
11.6800,    10.0,
11.7000,     7.0,
11.7200,    13.0,
11.7400,    11.0,
11.7600,     9.0,
11.7800,    16.0,
11.8000,     8.0,
11.8200,    14.0,
11.8400,     8.0,
11.8600,     6.0,
11.8800,     8.0,
11.9000,     9.0,
11.9200,     6.0,
11.9400,     7.0,
11.9600,     9.0,
11.9800,     7.0,
12.0000,    10.0,
12.0200,     7.0,
12.0400,     7.0,
12.0600,     7.0,
12.0800,     9.0,
12.1000,     7.0,
12.1200,     9.0,
12.1400,    11.0,
12.1600,     9.0,
12.1800,     4.0,
12.2000,     3.0,
12.2200,     6.0,
12.2400,     9.0,
12.2600,     7.0,
12.2800,     8.0,
12.3000,     5.0,
12.3200,     6.0,
12.3400,     6.0,
12.3600,     9.0,
12.3800,     5.0,
12.4000,     8.0,
12.4200,     7.0,
12.4400,    10.0,
12.4600,     7.0,
12.4800,     7.0,
12.5000,    11.0,
12.5200,     8.0,
12.5400,    14.0,
12.5600,    10.0,
12.5800,    11.0,
12.6000,     7.0,
12.6200,     7.0,
12.6400,    12.0,
12.6600,     3.0,
12.6800,    13.0,
12.7000,     8.0,
12.7200,    12.0,
12.7400,     5.0,
12.7600,     9.0,
12.7800,     9.0,
12.8000,     3.0,
12.8200,     8.0,
12.8400,     6.0,
12.8600,     6.0,
12.8800,    15.0,
12.9000,    11.0,
12.9200,     7.0,
12.9400,     7.0,
12.9600,     9.0,
12.9800,     6.0,
13.0000,     6.0,
13.0200,     5.0,
13.0400,    10.0,
13.0600,     5.0,
13.0800,     2.0,
13.1000,     2.0,
13.1200,     8.0,
13.1400,     9.0,
13.1600,     6.0,
13.1800,     7.0,
13.2000,     3.0,
13.2200,     5.0,
13.2400,    10.0,
13.2600,     6.0,
13.2800,     7.0,
13.3000,     3.0,
13.3200,     6.0,
13.3400,     8.0,
13.3600,     6.0,
13.3800,     5.0,
13.4000,     8.0,
13.4200,     5.0,
13.4400,     7.0,
13.4600,     9.0,
13.4800,     7.0,
13.5000,     4.0,
13.5200,     5.0,
13.5400,    11.0,
13.5600,     4.0,
13.5800,     9.0,
13.6000,     4.0,
13.6200,     3.0,
13.6400,     7.0,
13.6600,    11.0,
13.6800,     4.0,
13.7000,     7.0,
13.7200,     7.0,
13.7400,     5.0,
13.7600,    10.0,
13.7800,    10.0,
13.8000,     5.0,
13.8200,    10.0,
13.8400,     7.0,
13.8600,     5.0,
13.8800,     8.0,
13.9000,     2.0,
13.9200,     7.0,
13.9400,     2.0,
13.9600,     3.0,
13.9800,     6.0,
14.0000,     6.0,
14.0200,     5.0,
14.0400,     5.0,
14.0600,     8.0,
14.0800,     6.0,
14.1000,    13.0,
14.1200,     8.0,
14.1400,     7.0,
14.1600,     8.0,
14.1800,     7.0,
14.2000,     9.0,
14.2200,     4.0,
14.2400,     5.0,
14.2600,     6.0,
14.2800,     4.0,
14.3000,     5.0,
14.3200,     3.0,
14.3400,     7.0,
14.3600,     5.0,
14.3800,     7.0,
14.4000,     5.0,
14.4200,     5.0,
14.4400,     4.0,
14.4600,     6.0,
14.4800,     5.0,
14.5000,     8.0,
14.5200,     2.0,
14.5400,     4.0,
14.5600,     2.0,
14.5800,     8.0,
14.6000,     7.0,
14.6200,     8.0,
14.6400,     5.0,
14.6600,     3.0,
14.6800,     4.0,
14.7000,     5.0,
14.7200,     3.0,
14.7400,     4.0,
14.7600,     3.0,
14.7800,     6.0,
14.8000,     7.0,
14.8200,     6.0,
14.8400,     0.0,
14.8600,     5.0,
14.8800,     5.0,
14.9000,     4.0,
14.9200,     4.0,
14.9400,     3.0,
14.9600,     3.0,
14.9800,     3.0,
15.0000,     1.0,
15.0200,     6.0,
15.0400,     3.0,
15.0600,     4.0,
15.0800,     4.0,
15.1000,     2.0,
15.1200,     2.0,
15.1400,     4.0,
15.1600,     9.0,
15.1800,     3.0,
15.2000,     5.0,
15.2200,     4.0,
15.2400,     3.0,
15.2600,     3.0,
15.2800,     3.0,
15.3000,     5.0,
15.3200,     4.0,
15.3400,     2.0,
15.3600,     4.0,
15.3800,     3.0,
15.4000,     7.0,
15.4200,     2.0,
15.4400,     3.0,
15.4600,     4.0,
15.4800,     0.0,
15.5000,     0.0,
15.5200,     3.0,
15.5400,     5.0,
15.5600,     3.0,
15.5800,     2.0,
15.6000,     5.0,
15.6200,     7.0,
15.6400,     6.0,
15.6600,     5.0,
15.6800,     4.0,
15.7000,     6.0,
15.7200,     0.0,
15.7400,     4.0,
15.7600,     2.0,
15.7800,     3.0,
15.8000,     2.0,
15.8200,     1.0,
15.8400,     6.0,
15.8600,     2.0,
15.8800,     2.0,
15.9000,     3.0,
15.9200,     2.0,
15.9400,     1.0,
15.9600,     3.0,
15.9800,     4.0,
16.0000,     3.0,
16.0200,     3.0,
16.0400,     2.0,
16.0600,     2.0,
16.0800,     4.0,
16.1000,     1.0,
16.1200,     8.0,
16.1400,     2.0,
16.1600,     4.0,
16.1800,     6.0,
16.2000,     5.0,
16.2200,     3.0,
16.2400,     3.0,
16.2600,     6.0,
16.2800,     2.0,
16.3000,     4.0,
16.3200,     2.0,
16.3400,     3.0,
16.3600,     4.0,
16.3800,     2.0,
16.4000,     3.0,
16.4200,     4.0,
16.4400,     8.0,
16.4600,     1.0,
16.4800,     3.0,
16.5000,     4.0,
16.5200,     4.0,
16.5400,     0.0,
16.5600,     4.0,
16.5800,     3.0,
16.6000,     2.0,
16.6200,     7.0,
16.6400,     4.0,
16.6600,     0.0,
16.6800,     1.0,
16.7000,     3.0,
16.7200,     0.0,
16.7400,     3.0,
16.7600,     0.0,
16.7800,     1.0,
16.8000,     7.0,
16.8200,     0.0,
16.8400,     4.0,
16.8600,     5.0,
16.8800,     1.0,
16.9000,     3.0,
16.9200,     7.0,
16.9400,     4.0,
16.9600,     2.0,
16.9800,     1.0,
17.0000,     2.0,
17.0200,     3.0,
17.0400,     2.0,
17.0600,     3.0,
17.0800,     1.0,
17.1000,     2.0,
17.1200,     4.0,
17.1400,     1.0,
17.1600,     1.0,
17.1800,     3.0,
17.2000,     7.0,
17.2200,     3.0,
17.2400,     0.0,
17.2600,     3.0,
17.2800,     2.0,
17.3000,     2.0,
17.3200,     4.0,
17.3400,     3.0,
17.3600,     3.0,
17.3800,     2.0,
17.4000,     1.0,
17.4200,     3.0,
17.4400,     2.0,
17.4600,     2.0,
17.4800,     7.0,
17.5000,     1.0,
17.5200,     2.0,
17.5400,     1.0,
17.5600,     4.0,
17.5800,     5.0,
17.6000,     1.0,
17.6200,     1.0,
17.6400,     2.0,
17.6600,     0.0,
17.6800,     1.0,
17.7000,     1.0,
17.7200,     1.0,
17.7400,     1.0,
17.7600,     3.0,
17.7800,     2.0,
17.8000,     5.0,
17.8200,     4.0,
17.8400,     3.0,
17.8600,     1.0,
17.8800,     4.0,
17.9000,     5.0,
17.9200,     6.0,
17.9400,     2.0,
17.9600,     1.0,
17.9800,     0.0,
18.0000,     0.0,
18.0200,     1.0,
18.0400,     2.0,
18.0600,     1.0,
18.0800,     2.0,
18.1000,     3.0,
18.1200,     3.0,
18.1400,     1.0,
18.1600,     2.0,
18.1800,     1.0,
18.2000,     0.0,
18.2200,     2.0,
18.2400,     1.0,
18.2600,     2.0,
18.2800,     4.0,
18.3000,     3.0,
18.3200,     1.0,
18.3400,     0.0,
18.3600,     2.0,
18.3800,     1.0,
18.4000,     2.0,
18.4200,     3.0,
18.4400,     3.0,
18.4600,     2.0,
18.4800,     1.0,
18.5000,     4.0,
18.5200,     2.0,
18.5400,     2.0,
18.5600,     1.0,
18.5800,     3.0,
18.6000,     2.0,
18.6200,     1.0,
18.6400,     2.0,
18.6600,     3.0,
18.6800,     1.0,
18.7000,     2.0,
18.7200,     1.0,
18.7400,     1.0,
18.7600,     3.0,
18.7800,     1.0,
18.8000,     1.0,
18.8200,     2.0,
18.8400,     1.0,
18.8600,     1.0,
18.8800,     2.0,
18.9000,     2.0,
18.9200,     1.0,
18.9400,     1.0,
18.9600,     2.0,
18.9800,     3.0,
19.0000,     1.0,
19.0200,     1.0,
19.0400,     1.0,
19.0600,     1.0,
19.0800,     2.0,
19.1000,     0.0,
19.1200,     1.0,
19.1400,     2.0,
19.1600,     0.0,
19.1800,     4.0,
19.2000,     2.0,
19.2200,     1.0,
19.2400,     0.0,
19.2600,     0.0,
19.2800,     1.0,
19.3000,     1.0,
19.3200,     0.0,
19.3400,     0.0,
19.3600,     0.0,
19.3800,     0.0,
19.4000,     2.0,
19.4200,     3.0,
19.4400,     2.0,
19.4600,     1.0,
19.4800,     2.0,
19.5000,     2.0,
19.5200,     0.0,
19.5400,     0.0,
19.5600,     2.0,
19.5800,     0.0,
19.6000,     1.0,
19.6200,     2.0,
19.6400,     3.0,
19.6600,     2.0,
19.6800,     1.0,
19.7000,     0.0,
19.7200,     1.0,
19.7400,     0.0,
19.7600,     3.0,
19.7800,     3.0,
19.8000,     2.0,
19.8200,     0.0,
19.8400,     0.0,
19.8600,     1.0,
19.8800,     1.0,
19.9000,     2.0,
19.9200,     0.0,
19.9400,     0.0,
19.9600,     1.0,
19.9800,     2.0,
20.0000,     3.0,
20.0200,     1.0,
20.0400,     2.0,
20.0600,     0.0,
20.0800,     0.0,
20.1000,     0.0,
20.1200,     2.0,
20.1400,     0.0,
20.1600,     1.0,
20.1800,     2.0,
20.2000,     2.0,
20.2200,     5.0,
20.2400,     3.0,
20.2600,     0.0,
20.2800,     0.0,
20.3000,     1.0,
20.3200,     2.0,
20.3400,     4.0,
20.3600,     2.0,
20.3800,     1.0,
20.4000,     1.0,
20.4200,     3.0,
20.4400,     1.0,
20.4600,     0.0,
20.4800,     1.0,
20.5000,     1.0,
20.5200,     1.0,
20.5400,     1.0,
20.5600,     1.0,
20.5800,     1.0,
20.6000,     1.0,
20.6200,     2.0,
20.6400,     1.0,
20.6600,     0.0,
20.6800,     1.0,
20.7000,     0.0,
20.7200,     2.0,
20.7400,     1.0,
20.7600,     0.0,
20.7800,     0.0,
20.8000,     1.0,
20.8200,     0.0,
20.8400,     1.0,
20.8600,     0.0,
20.8800,     1.0,
20.9000,     1.0,
20.9200,     0.0,
20.9400,     0.0,
20.9600,     2.0,
20.9800,     1.0,
21.0000,     0.0,
21.0200,     0.0,
21.0400,     2.0,
21.0600,     0.0,
21.0800,     1.0,
21.1000,     0.0,
21.1200,     0.0,
21.1400,     0.0,
21.1600,     1.0,
21.1800,     0.0,
21.2000,     0.0,
21.2200,     2.0,
21.2400,     0.0,
21.2600,     0.0,
21.2800,     0.0,
21.3000,     1.0,
21.3200,     2.0,
21.3400,     0.0,
21.3600,     0.0,
21.3800,     1.0,
21.4000,     0.0,
21.4200,     1.0,
21.4400,     0.0,
21.4600,     1.0,
21.4800,     0.0,
21.5000,     1.0,
21.5200,     0.0,
21.5400,     0.0,
21.5600,     0.0,
21.5800,     0.0,
21.6000,     0.0,
21.6200,     1.0,
21.6400,     0.0,
21.6600,     1.0,
21.6800,     0.0,
21.7000,     1.0,
21.7200,     0.0,
21.7400,     1.0,
21.7600,     2.0,
21.7800,     0.0,
21.8000,     1.0,
21.8200,     0.0,
21.8400,     1.0,
21.8600,     0.0,
21.8800,     1.0,
21.9000,     0.0,
21.9200,     0.0,
21.9400,     0.0,
21.9600,     1.0,
21.9800,     0.0,
22.0000,     0.0,
22.0200,     0.0,
22.0400,     0.0,
22.0600,     0.0,
22.0800,     0.0,
22.1000,     1.0,
22.1200,     0.0,
22.1400,     0.0,
22.1600,     0.0,
22.1800,     0.0,
22.2000,     0.0,
22.2200,     0.0,
22.2400,     0.0,
22.2600,     0.0,
22.2800,     0.0,
22.3000,     0.0,
22.3200,     0.0,
22.3400,     0.0,
22.3600,     0.0,
22.3800,     0.0,
22.4000,     0.0,
22.4200,     0.0,
22.4400,     0.0,
22.4600,     0.0,
22.4800,     1.0,
22.5000,     0.0,
22.5200,     1.0,
22.5400,     0.0,
22.5600,     1.0,
22.5800,     0.0,
22.6000,     0.0,
22.6200,     0.0,
22.6400,     1.0,
22.6600,     1.0,
22.6800,     0.0,
22.7000,     2.0,
22.7200,     0.0,
22.7400,     0.0,
22.7600,     1.0,
22.7800,     1.0,
22.8000,     0.0,
22.8200,     1.0,
22.8400,     1.0,
22.8600,     0.0,
22.8800,     0.0,
22.9000,     0.0,
22.9200,     0.0,
22.9400,     0.0,
22.9600,     0.0,
22.9800,     0.0,
23.0000,     0.0,
23.0200,     1.0,
23.0400,     0.0,
23.0600,     1.0,
23.0800,     1.0,
23.1000,     1.0,
23.1200,     0.0,
23.1400,     0.0,
23.1600,     1.0,
23.1800,     0.0,
23.2000,     0.0,
23.2200,     0.0,
23.2400,     0.0,
23.2600,     0.0,
23.2800,     0.0,
23.3000,     0.0,
23.3200,     0.0,
23.3400,     0.0,
23.3600,     0.0,
23.3800,     1.0,
23.4000,     2.0,
23.4200,     0.0,
23.4400,     0.0,
23.4600,     0.0,
23.4800,     0.0,
23.5000,     1.0,
23.5200,     0.0,
23.5400,     0.0,
23.5600,     0.0,
23.5800,     0.0,
23.6000,     2.0,
23.6200,     0.0,
23.6400,     0.0,
23.6600,     0.0,
23.6800,     1.0,
23.7000,     0.0,
23.7200,     0.0,
23.7400,     0.0,
23.7600,     0.0,
23.7800,     0.0,
23.8000,     0.0,
23.8200,     1.0,
23.8400,     0.0,
23.8600,     0.0,
23.8800,     0.0,
23.9000,     0.0,
23.9200,     0.0,
23.9400,     0.0,
23.9600,     0.0,
23.9800,     0.0,
24.0000,     0.0,
24.0200,     0.0,
24.0400,     0.0,
24.0600,     2.0,
24.0800,     0.0,
24.1000,     0.0,
24.1200,     0.0,
24.1400,     0.0,
24.1600,     0.0,
24.1800,     0.0,
24.2000,     0.0,
24.2200,     0.0,
24.2400,     0.0,
24.2600,     0.0,
24.2800,     0.0,
24.3000,     0.0,
24.3200,     0.0,
24.3400,     0.0,
24.3600,     0.0,
24.3800,     0.0,
24.4000,     0.0,
24.4200,     0.0,
24.4400,     0.0,
24.4600,     0.0,
24.4800,     0.0,
24.5000,     0.0,
24.5200,     0.0,
24.5400,     0.0,
24.5600,     0.0,
24.5800,     0.0,
24.6000,     0.0,
24.6200,     0.0,
24.6400,     1.0,
24.6600,     0.0,
24.6800,     0.0,
24.7000,     0.0,
24.7200,     0.0,
24.7400,     0.0,
24.7600,     0.0,
24.7800,     0.0,
24.8000,     0.0,
24.8200,     0.0,
24.8400,     0.0,
24.8600,     0.0,
24.8800,     0.0,
24.9000,     0.0,
24.9200,     0.0,
24.9400,     0.0,
24.9600,     0.0,
24.9800,     0.0,
25.0000,     0.0,
25.0200,     0.0,
25.0400,     0.0,
25.0600,     0.0,
25.0800,     0.0,
25.1000,     0.0,
25.1200,     0.0,
25.1400,     1.0,
25.1600,     0.0,
25.1800,     0.0,
25.2000,     0.0,
25.2200,     0.0,
25.2400,     0.0,
25.2600,     0.0,
25.2800,     0.0,
25.3000,     0.0,
25.3200,     0.0,
25.3400,     0.0,
25.3600,     0.0,
25.3800,     0.0,
25.4000,     0.0,
25.4200,     0.0,
25.4400,     0.0,
25.4600,     0.0,
25.4800,     0.0,
25.5000,     0.0,
25.5200,     0.0,
25.5400,     0.0,
25.5600,     0.0,
25.5800,     0.0,
25.5900,     0.0,
#ENDOFDATA   :